File: Verification/Pyrolysis/birch_tga_20_exp.csv
Temp,Mass
20.05544,1
21.05544,0.9998084
22.05544,0.9998027
23.05544,0.9997926
24.05544,0.9997526
25.05544,0.9996793
26.05544,0.9996524
27.05544,0.9995872
28.05544,0.9995416
29.05544,0.9994039
30.05544,0.9994099
31.05544,0.9993419
32.05544,0.9992849
33.05544,0.9991913
34.05544,0.9991147
35.05544,0.9990855
36.05544,0.9989977
37.05544,0.9988895
38.05544,0.9988363
39.05544,0.9988047
40.05544,0.9987575
41.05544,0.9987066
42.05544,0.9986728
43.05544,0.9986617
44.05544,0.9986136
45.05544,0.9985326
46.05544,0.9984543
47.05544,0.9984106
48.05544,0.9983397
49.05544,0.9982922
50.05544,0.9982331
51.05544,0.9981859
52.05544,0.9980839
53.05544,0.9979809
54.05544,0.9978912
55.05544,0.9978229
56.05544,0.9977038
57.05544,0.9975736
58.05544,0.9974522
59.05544,0.9973408
60.05544,0.9972191
61.05544,0.9970949
62.05544,0.9969454
63.05544,0.996819
64.05544,0.9967207
65.05544,0.9966162
66.05544,0.9964882
67.05544,0.9963073
68.05544,0.996079
69.05544,0.9958566
70.05544,0.9956759
71.05544,0.9954689
72.05544,0.9952518
73.05544,0.9950112
74.05544,0.9948123
75.05544,0.9946352
76.05544,0.9944412
77.05544,0.9941869
78.05544,0.9943788
79.05544,0.9948257
80.05544,0.9946349
81.05544,0.9933388
82.05544,0.9931274
83.05544,0.992888
84.05544,0.9926564
85.05544,0.9924035
86.05544,0.9921359
87.05544,0.99185
88.05544,0.9915767
89.05544,0.9913063
90.05544,0.9910345
91.05544,0.9907785
92.05544,0.9905158
93.05544,0.9902631
94.05544,0.9900109
95.05544,0.9897381
96.05544,0.9894576
97.05544,0.9891765
98.05544,0.9889123
99.05544,0.9886521
100.055,0.9884212
101.055,0.9881966
102.055,0.9879392
103.055,0.9877035
104.055,0.9874822
105.055,0.9872721
106.055,0.9870493
107.055,0.9868598
108.055,0.9866896
109.055,0.9865157
110.055,0.9863416
111.055,0.9861639
112.055,0.9859907
113.055,0.9858315
114.055,0.985677
115.055,0.9855445
116.055,0.9854169
117.055,0.9852921
118.055,0.9851764
119.055,0.9850944
120.055,0.9850094
121.055,0.9849333
122.055,0.9848447
123.055,0.9847712
124.055,0.9847206
125.055,0.984674
126.055,0.9846301
127.055,0.9845944
128.055,0.984549
129.055,0.9845016
130.055,0.9844441
131.055,0.9843978
132.055,0.98434
133.055,0.9843011
134.055,0.984259
135.055,0.9842132
136.055,0.984162
137.055,0.9841159
138.055,0.9840884
139.055,0.9840596
140.055,0.9840452
141.055,0.9840358
142.055,0.9840351
143.055,0.9840355
144.055,0.9840267
145.055,0.9840117
146.055,0.9839938
147.055,0.9839788
148.055,0.9839592
149.055,0.9839459
150.055,0.9839173
151.055,0.9838873
152.055,0.9838716
153.055,0.9838556
154.055,0.9838396
155.055,0.9838139
156.055,0.983793
157.055,0.9837801
158.055,0.9837563
159.055,0.9837454
160.055,0.9837253
161.055,0.9837056
162.055,0.9836914
163.055,0.9836669
164.055,0.9836502
165.055,0.9836193
166.055,0.9836046
167.055,0.9835849
168.055,0.9835803
169.055,0.9835601
170.055,0.9835454
171.055,0.9835248
172.055,0.9835024
173.055,0.983465
174.055,0.983427
175.055,0.9833799
176.055,0.9833592
177.055,0.9833458
178.055,0.9833236
179.055,0.9832943
180.055,0.9832719
181.055,0.9832661
182.055,0.9832386
183.055,0.9831827
184.055,0.9831459
185.055,0.9831032
186.055,0.9830511
187.055,0.9830132
188.055,0.9829622
189.055,0.9829192
190.055,0.9828743
191.055,0.9828431
192.055,0.982812
193.055,0.9827589
194.055,0.9826781
195.055,0.9825807
196.055,0.9825112
197.055,0.9824686
198.055,0.9824074
199.055,0.9823377
200.055,0.9822769
201.055,0.9822042
202.055,0.9821117
203.055,0.9820028
204.055,0.9819179
205.055,0.9818701
206.055,0.9818187
207.055,0.9817414
208.055,0.9815827
209.055,0.9814741
210.055,0.9813949
211.055,0.9813084
212.055,0.9811955
213.055,0.9810755
214.055,0.9809421
215.055,0.9807777
216.055,0.9806669
217.055,0.9805664
218.055,0.9804679
219.055,0.9803161
220.055,0.9801777
221.055,0.9800411
222.055,0.9798969
223.055,0.9797317
224.055,0.9795868
225.055,0.9794015
226.055,0.9792578
227.055,0.9790877
228.055,0.97889
229.055,0.9787165
230.055,0.9785541
231.055,0.978375
232.055,0.9781631
233.055,0.9779516
234.055,0.9777417
235.055,0.9775294
236.055,0.9772622
237.055,0.9769958
238.055,0.9767167
239.055,0.9764599
240.055,0.9761659
241.055,0.9758604
242.055,0.9755144
243.055,0.9751637
244.055,0.9747882
245.055,0.9744157
246.055,0.974025
247.055,0.9735989
248.055,0.9731571
249.055,0.972508
250.055,0.9720435
251.055,0.9715708
252.055,0.9709832
253.055,0.9704309
254.055,0.9697477
255.055,0.9692229
256.055,0.9685064
257.055,0.9679057
258.055,0.9671425
259.055,0.9663698
260.055,0.9656434
261.055,0.964785
262.055,0.9639541
263.055,0.9631077
264.055,0.9621928
265.055,0.9612571
266.055,0.9602041
267.055,0.9591717
268.055,0.9580469
269.055,0.956896
270.055,0.9556799
271.055,0.9543723
272.055,0.9530194
273.055,0.9515523
274.055,0.9500582
275.055,0.9470575
276.055,0.9452856
277.055,0.9438108
278.055,0.9421431
279.055,0.9387226
280.055,0.9372251
281.055,0.9354559
282.055,0.9334022
283.055,0.9296089
284.055,0.9274604
285.055,0.9253275
286.055,0.9208777
287.055,0.9186694
288.055,0.9162874
289.055,0.9111037
290.055,0.907515
291.055,0.9050379
292.055,0.9022984
293.055,0.8976687
294.055,0.894784
295.055,0.8888412
296.055,0.884764
297.055,0.8809355
298.055,0.8764955
299.055,0.8723404
300.055,0.8679238
301.055,0.8636724
302.055,0.858811
303.055,0.854705
304.055,0.8496722
305.055,0.8453474
306.055,0.8401207
307.055,0.8355445
308.055,0.8303837
309.055,0.8258839
310.055,0.820931
311.055,0.8161546
312.055,0.8112714
313.055,0.806136
314.055,0.8015828
315.055,0.7964419
316.055,0.7918054
317.055,0.7870972
318.055,0.781711
319.055,0.7771334
320.055,0.7720817
321.055,0.7675023
322.055,0.7625411
323.055,0.7577873
324.055,0.7528874
325.055,0.748049
326.055,0.7433508
327.055,0.7383436
328.055,0.7337672
329.055,0.7283317
330.055,0.7237605
331.055,0.7188187
332.055,0.7141262
333.055,0.7093238
334.055,0.7042685
335.055,0.699708
336.055,0.6946945
337.055,0.6901715
338.055,0.6851621
339.055,0.6805835
340.055,0.6751072
341.055,0.6706496
342.055,0.6655003
343.055,0.6605417
344.055,0.6557676
345.055,0.6507101
346.055,0.6459013
347.055,0.6408267
348.055,0.6359668
349.055,0.6307089
350.055,0.6258283
351.055,0.6204727
352.055,0.6153625
353.055,0.6097015
354.055,0.6042969
355.055,0.5985664
356.055,0.5930248
357.055,0.5872018
358.055,0.5809785
359.055,0.5751748
360.055,0.5684362
361.055,0.5621604
362.055,0.5555542
363.055,0.5481223
364.055,0.541359
365.055,0.5335889
366.055,0.5257283
367.055,0.5179167
368.055,0.5091155
369.055,0.5004973
370.055,0.4909922
371.055,0.4821107
372.055,0.4720213
373.055,0.4625881
374.055,0.4521793
375.055,0.4420473
376.055,0.4311607
377.055,0.4204982
378.055,0.4093746
379.055,0.3985281
380.055,0.3872846
381.055,0.3760838
382.055,0.3651029
383.055,0.3541243
384.055,0.3431813
385.055,0.3324773
386.055,0.3229838
387.055,0.3131415
388.055,0.3045143
389.055,0.2957107
390.055,0.2882882
391.055,0.2808225
392.055,0.2746072
393.055,0.2687508
394.055,0.2639546
395.055,0.2592546
396.055,0.2561276
397.055,0.253627
398.055,0.2516341
399.055,0.2495156
400.055,0.2483356
401.055,0.245079
402.055,0.2441858
403.055,0.2432037
404.055,0.2425062
405.055,0.2416454
406.055,0.2407146
407.055,0.2398578
408.055,0.2389837
409.055,0.2382126
410.055,0.237353
411.055,0.2366673
412.055,0.2358113
413.055,0.2351285
414.055,0.2343576
415.055,0.2336575
416.055,0.2329407
417.055,0.2321785
418.055,0.2315648
419.055,0.2308324
420.055,0.2301005
421.055,0.2295031
422.055,0.2287195
423.055,0.2281393
424.055,0.2274195
425.055,0.2266612
426.055,0.226107
427.055,0.2254013
428.055,0.2247035
429.055,0.2241394
430.055,0.2234224
431.055,0.2228913
432.055,0.2221819
433.055,0.2216175
434.055,0.2210467
435.055,0.220331
436.055,0.2197506
437.055,0.2192074
438.055,0.2186343
439.055,0.2180576
440.055,0.2174434
441.055,0.2168725
442.055,0.2162441
443.055,0.2157189
444.055,0.2151508
445.055,0.2146009
446.055,0.2140102
447.055,0.213524
448.055,0.212964
449.055,0.2124752
450.055,0.2119947
451.055,0.2114405
452.055,0.2110056
453.055,0.2105177
454.055,0.2100222
455.055,0.209522
456.055,0.2090454
457.055,0.2085062
458.055,0.2081826
459.055,0.2077221
460.055,0.2072364
461.055,0.2068441
462.055,0.2064284
463.055,0.2060091
464.055,0.2055931
465.055,0.205175
466.055,0.204743
467.055,0.2043954
468.055,0.2040293
469.055,0.2036509
470.055,0.2033026
471.055,0.2029319
472.055,0.2025765
473.055,0.2021919
474.055,0.2018791
475.055,0.2015753
476.055,0.2012239
477.055,0.2009002
478.055,0.2005535
479.055,0.2002539
480.055,0.1999444
481.055,0.1996375
482.055,0.1993226
483.055,0.1990257
484.055,0.1987368
485.055,0.1984549
486.055,0.1981466
487.055,0.1978385
488.055,0.197545
489.055,0.1972402
490.055,0.1969843
491.055,0.1967021
492.055,0.1964201
493.055,0.1961527
494.055,0.1959112
495.055,0.1956298
496.055,0.1953821
497.055,0.1951121
498.055,0.1948827
499.055,0.1946348
500.055,0.1943739
501.055,0.1941229
502.055,0.1938821
503.055,0.1936357
504.055,0.1934096
505.055,0.1931655
506.055,0.192933
507.055,0.1926803
508.055,0.192462
509.055,0.1922011
510.055,0.1920019
511.055,0.191764
512.055,0.1915564
513.055,0.1913093
514.055,0.1911035
515.055,0.1908494
516.055,0.190643
517.055,0.1904146
518.055,0.1902152
519.055,0.1899958
520.055,0.189764
521.055,0.1895176
522.055,0.1893157
523.055,0.189102
524.055,0.1889362
525.055,0.1887539
526.055,0.1885507
527.055,0.188331
528.055,0.1881222
529.055,0.1879138
530.055,0.1877275
531.055,0.1875293
532.055,0.1873343
533.055,0.187133
534.055,0.1869437
535.055,0.1867417
536.055,0.186544
537.055,0.1863245
538.055,0.1861419
539.055,0.1859179
540.055,0.1857171
541.055,0.1855241
542.055,0.1853299
543.055,0.185151
544.055,0.1849573
545.055,0.1847885
546.055,0.1846359
547.055,0.1844516
548.055,0.1842698
549.055,0.1840972
550.055,0.1839382
551.055,0.1837537
552.055,0.1835689
553.055,0.1833804
554.055,0.1831914
555.055,0.1830405
556.055,0.182873
557.055,0.182691
558.055,0.1825087
559.055,0.1823289
560.055,0.1821533
561.055,0.1820021
562.055,0.1818294
563.055,0.1816591
564.055,0.1815049
565.055,0.1813435
566.055,0.1812003
567.055,0.1810573
568.055,0.1808898
569.055,0.1807224
570.055,0.1805659
571.055,0.1804227
572.055,0.1802689
573.055,0.180102
574.055,0.1799417
575.055,0.1797863
576.055,0.179634
577.055,0.1794842
578.055,0.1793386
579.055,0.1792034
580.055,0.179039
581.055,0.1788955
582.055,0.1787366
583.055,0.1785901
584.055,0.178432
585.055,0.1782704
586.055,0.1781326
587.055,0.1779951
588.055,0.1778636
589.055,0.1777036
590.055,0.1775672
591.055,0.1774184
592.055,0.1772699
593.055,0.1771226
594.055,0.1769617
595.055,0.176822
596.055,0.176698
597.055,0.1765665
598.055,0.1764381
599.055,0.1762869
600.055,0.176151
601.055,0.1760201
602.055,0.1759122
603.055,0.1757669
604.055,0.1756417
605.055,0.1754972
606.055,0.1753493
607.055,0.1752357
608.055,0.1751051
609.055,0.1749901
610.055,0.1748762
611.055,0.1747448
612.055,0.1746142
613.055,0.1745083
614.055,0.1743937
615.055,0.1742626
616.055,0.1741486
617.055,0.174018
618.055,0.1739032
619.055,0.1737894
620.055,0.1736993
621.055,0.1736001
622.055,0.1734875
623.055,0.1733812
624.055,0.1732653
625.055,0.1731691
626.055,0.1730717
627.055,0.1729482
628.055,0.1728436
629.055,0.1727497
630.055,0.1726296
631.055,0.1725306
632.055,0.1724175
633.055,0.1723197
634.055,0.1722081
635.055,0.1721146
636.055,0.1719899
637.055,0.171863
638.055,0.1717773
639.055,0.1716416
640.055,0.1715629
641.055,0.1714619
642.055,0.1713709
643.055,0.1712686
644.055,0.1712127
645.055,0.1711314
646.055,0.1710369
647.055,0.1709598
648.055,0.1708558
649.055,0.1707685
650.055,0.1706874
651.055,0.1706
652.055,0.1705217
653.055,0.1704663
654.055,0.1703867
655.055,0.1703043
656.055,0.1702289
657.055,0.170151
658.055,0.1700506
659.055,0.169974
660.055,0.1699089
661.055,0.1698196
662.055,0.1697526
663.055,0.1696863
664.055,0.1696287
665.055,0.1695943
666.055,0.1695151
667.055,0.1694245
668.055,0.1693593
669.055,0.1692779
670.055,0.1692037
671.055,0.1691448
672.055,0.1691125
673.055,0.1690482
674.055,0.1689662
675.055,0.1688998
676.055,0.1688011
677.055,0.168751
678.055,0.1686855
679.055,0.1686123
680.055,0.1685624
681.055,0.1684966
682.055,0.1684475
683.055,0.168406
684.055,0.1683734
685.055,0.1683322
686.055,0.16825
687.055,0.1681678
688.055,0.1680865
689.055,0.1680451
690.055,0.1680042
691.055,0.167914
692.055,0.1678478
693.055,0.167816
694.055,0.1677827
695.055,0.1677412
696.055,0.1676755
697.055,0.167585
698.055,0.1675128
699.055,0.1674537
700.055,0.1674387
701.055,0.167408
702.055,0.167355
703.055,0.1672833
704.055,0.1672478
705.055,0.1672088
706.055,0.1671549
707.055,0.1670998
708.055,0.1670414
709.055,0.1669853
710.055,0.1669178
711.055,0.1668819
712.055,0.1668522
713.055,0.1667659
714.055,0.1667028
715.055,0.1666547
716.055,0.1665864
717.055,0.1664667
718.055,0.1663904
719.055,0.166366
720.055,0.1663157
721.055,0.1662796
722.055,0.1662467
723.055,0.1661617
724.055,0.1661066
725.055,0.1660739
726.055,0.1660333
727.055,0.1660008
728.055,0.165959
729.055,0.1658851
730.055,0.1658105
731.055,0.1657767
732.055,0.1657519
733.055,0.1657269
734.055,0.1656935
735.055,0.1656115
736.055,0.1655698
737.055,0.1655372
738.055,0.1654784
739.055,0.1654191
740.055,0.1653656
741.055,0.1653213
742.055,0.165274
743.055,0.1652292
744.055,0.1651594
745.055,0.1651051
746.055,0.165073
747.055,0.1650553
748.055,0.1650244
749.055,0.1649469
750.055,0.1648884
751.055,0.1648531
752.055,0.1647899
753.055,0.1647446
754.055,0.1647121
755.055,0.1646624
756.055,0.1646295
757.055,0.1646039
758.055,0.1645532
759.055,0.1645038
760.055,0.1644686
761.055,0.1644583
762.055,0.1644387
763.055,0.1644093
764.055,0.1643725
765.055,0.1643346
766.055,0.1642683
767.055,0.1642289
768.055,0.1642089
769.055,0.1641571
770.055,0.1640988
771.055,0.1640727
772.055,0.1640642
773.055,0.1640311
774.055,0.1639817
775.055,0.163923
776.055,0.1638592
777.055,0.1638134
778.055,0.1637815
779.055,0.1637421
780.055,0.163697
781.055,0.1636666
782.055,0.1636473
783.055,0.1635891
784.055,0.1635108
785.055,0.1634747
786.055,0.1634429
787.055,0.163409
788.055,0.163335
789.055,0.1632954
790.055,0.1632839
791.055,0.1632178
792.055,0.1631287
793.055,0.1630923
794.055,0.1630619
795.055,0.1630345
796.055,0.1629628