File: Verification/Pyrolysis/birch_tga_2_exp.csv
Temp,Mass
23.85012,1
24.85012,0.9972929
25.85012,0.997259
26.85012,0.9973545
27.85012,0.9973027
28.85012,0.9972767
29.85012,0.997191
30.85012,0.997112
31.85012,0.9970514
32.85012,0.9968857
33.85012,0.9967005
34.85012,0.9964921
35.85012,0.9962587
36.85012,0.9959738
37.85012,0.9956632
38.85012,0.9953708
39.85012,0.9949015
40.85012,0.9945018
41.85012,0.9940136
42.85012,0.99354
43.85012,0.993034
44.85012,0.9925427
45.85012,0.991946
46.85012,0.9913718
47.85012,0.9908145
48.85012,0.9902353
49.85012,0.9896601
50.85012,0.9890998
51.85012,0.9885391
52.85012,0.987903
53.85012,0.987313
54.85012,0.9867453
55.85012,0.9860581
56.85012,0.985458
57.85012,0.984833
58.85012,0.9843103
59.85012,0.9837288
60.85012,0.9830956
61.85012,0.9825753
62.85012,0.9820497
63.85012,0.9814395
64.85012,0.9809509
65.85012,0.9804438
66.85012,0.9799262
67.85012,0.9794276
68.85012,0.978998
69.85012,0.978569
70.85012,0.9781615
71.85012,0.9777878
72.85012,0.9773652
73.85012,0.9770122
74.85012,0.9767148
75.85012,0.9764093
76.85012,0.9761193
77.85012,0.9757807
78.85012,0.9755411
79.85012,0.9752693
80.85012,0.9750794
81.85012,0.9748321
82.85012,0.9746405
83.85012,0.9744909
84.85012,0.9743253
85.85012,0.9741359
86.85012,0.9739744
87.85012,0.9738299
88.85012,0.9737181
89.85012,0.9735895
90.85012,0.9734825
91.85012,0.9733298
92.85012,0.9732565
93.85012,0.9732072
94.85012,0.9731419
95.85012,0.9730593
96.85012,0.9729955
97.85012,0.9729352
98.85012,0.9728509
99.85012,0.9727886
100.85,0.97279
101.85,0.972745
102.85,0.9727354
103.85,0.9727027
104.85,0.9726642
105.85,0.9726486
106.85,0.9726531
107.85,0.9726566
108.85,0.9725984
109.85,0.9726106
110.85,0.9726155
111.85,0.9725932
112.85,0.9725726
113.85,0.9725739
114.85,0.9725942
115.85,0.9725844
116.85,0.9725865
117.85,0.9726192
118.85,0.9726188
119.85,0.9726146
120.85,0.9726398
121.85,0.9726063
122.85,0.9726445
123.85,0.972662
124.85,0.972681
125.85,0.9727506
126.85,0.9727561
127.85,0.9727717
128.85,0.9727396
129.85,0.9727211
130.85,0.9727111
131.85,0.9727271
132.85,0.9727441
133.85,0.9727594
134.85,0.9727624
135.85,0.9728373
136.85,0.9727987
137.85,0.9728697
138.85,0.9728518
139.85,0.9728368
140.85,0.9728714
141.85,0.9729064
142.85,0.9728896
143.85,0.9729114
144.85,0.9729222
145.85,0.9729781
146.85,0.9729965
147.85,0.9729714
148.85,0.972978
149.85,0.9730193
150.85,0.9729818
151.85,0.9730128
152.85,0.9729866
153.85,0.9730542
154.85,0.9730472
155.85,0.9730059
156.85,0.9730117
157.85,0.973004
158.85,0.9729961
159.85,0.9729965
160.85,0.9729548
161.85,0.9729879
162.85,0.9729797
163.85,0.9729557
164.85,0.9729218
165.85,0.9729123
166.85,0.9728805
167.85,0.972838
168.85,0.9728116
169.85,0.972782
170.85,0.9727693
171.85,0.9727235
172.85,0.9726791
173.85,0.9726065
174.85,0.972582
175.85,0.9725205
176.85,0.9724546
177.85,0.9724338
178.85,0.9723632
179.85,0.9723598
180.85,0.9722799
181.85,0.9722308
182.85,0.9721191
183.85,0.9720619
184.85,0.9719882
185.85,0.9719267
186.85,0.9718063
187.85,0.9717572
188.85,0.9716844
189.85,0.9715669
190.85,0.9714763
191.85,0.9713998
192.85,0.9713139
193.85,0.9711945
194.85,0.9710801
195.85,0.9709581
196.85,0.9708723
197.85,0.9707708
198.85,0.970638
199.85,0.9705143
200.85,0.9703788
201.85,0.9702304
202.85,0.9700797
203.85,0.9698716
204.85,0.9697227
205.85,0.9695897
206.85,0.9693905
207.85,0.9691745
208.85,0.9689664
209.85,0.9687099
210.85,0.9684775
211.85,0.9682296
212.85,0.9679784
213.85,0.9677066
214.85,0.9673797
215.85,0.9670593
216.85,0.966727
217.85,0.9664005
218.85,0.9660265
219.85,0.9655917
220.85,0.9651478
221.85,0.9647095
222.85,0.9642779
223.85,0.9637636
224.85,0.9631918
225.85,0.9626454
226.85,0.9620452
227.85,0.9614503
228.85,0.9607594
229.85,0.9600729
230.85,0.9593029
231.85,0.9585207
232.85,0.9577062
233.85,0.9568061
234.85,0.955909
235.85,0.9549256
236.85,0.9539078
237.85,0.9527866
238.85,0.951616
239.85,0.9504218
240.85,0.9490858
241.85,0.9476614
242.85,0.9461884
243.85,0.9446372
244.85,0.9429193
245.85,0.9410582
246.85,0.939155
247.85,0.9370949
248.85,0.9349493
249.85,0.9326486
250.85,0.9301902
251.85,0.9276234
252.85,0.9248827
253.85,0.9219968
254.85,0.9189874
255.85,0.9157952
256.85,0.9125566
257.85,0.9091327
258.85,0.9055519
259.85,0.9018714
260.85,0.8980877
261.85,0.8941973
262.85,0.8901803
263.85,0.8861078
264.85,0.8818925
265.85,0.8776468
266.85,0.8732487
267.85,0.8688738
268.85,0.8644537
269.85,0.8599597
270.85,0.8554414
271.85,0.8509178
272.85,0.846249
273.85,0.8416582
274.85,0.8370366
275.85,0.8324105
276.85,0.8277594
277.85,0.8231354
278.85,0.8184438
279.85,0.8138122
280.85,0.8090446
281.85,0.8043601
282.85,0.7997595
283.85,0.7950769
284.85,0.7904646
285.85,0.785856
286.85,0.7812501
287.85,0.7764733
288.85,0.7718973
289.85,0.7672143
290.85,0.762531
291.85,0.7578807
292.85,0.7532514
293.85,0.748481
294.85,0.7437235
295.85,0.7390221
296.85,0.7341927
297.85,0.7293994
298.85,0.7246087
299.85,0.7196938
300.85,0.7147231
301.85,0.7097949
302.85,0.7048632
303.85,0.6999711
304.85,0.6949733
305.85,0.6899238
306.85,0.6847934
307.85,0.6797521
308.85,0.6746419
309.85,0.6695681
310.85,0.664479
311.85,0.6592705
312.85,0.654114
313.85,0.6489515
314.85,0.6437301
315.85,0.6384379
316.85,0.6332582
317.85,0.6279031
318.85,0.6225115
319.85,0.6169541
320.85,0.6114887
321.85,0.6057834
322.85,0.6001178
323.85,0.5942573
324.85,0.5880447
325.85,0.5818192
326.85,0.5753204
327.85,0.5683686
328.85,0.5612581
329.85,0.5537648
330.85,0.5458036
331.85,0.5374622
332.85,0.5285367
333.85,0.5191654
334.85,0.5089997
335.85,0.4982475
336.85,0.4868191
337.85,0.4745939
338.85,0.4617146
339.85,0.448197
340.85,0.4340924
341.85,0.4195058
342.85,0.4047836
343.85,0.3898221
344.85,0.3748887
345.85,0.3604304
346.85,0.3464506
347.85,0.3332904
348.85,0.3212681
349.85,0.3103539
350.85,0.3006491
351.85,0.292364
352.85,0.2855216
353.85,0.2797211
354.85,0.2751279
355.85,0.2714497
356.85,0.2684787
357.85,0.2661318
358.85,0.26434
359.85,0.2628086
360.85,0.2615249
361.85,0.260359
362.85,0.2593378
363.85,0.2584518
364.85,0.2575931
365.85,0.2567271
366.85,0.2559088
367.85,0.2551793
368.85,0.2543635
369.85,0.2535673
370.85,0.2528137
371.85,0.2520264
372.85,0.2512986
373.85,0.2505163
374.85,0.2497832
375.85,0.2490784
376.85,0.2483017
377.85,0.2475275
378.85,0.2468321
379.85,0.246128
380.85,0.2453243
381.85,0.2445627
382.85,0.2438616
383.85,0.2431043
384.85,0.2424021
385.85,0.2416171
386.85,0.2408977
387.85,0.2401599
388.85,0.239406
389.85,0.2386961
390.85,0.2379508
391.85,0.2372622
392.85,0.2365312
393.85,0.2357946
394.85,0.2350936
395.85,0.2343754
396.85,0.2336896
397.85,0.2329671
398.85,0.2322622
399.85,0.2316376
400.85,0.2309384
401.85,0.2302254
402.85,0.2295963
403.85,0.2288853
404.85,0.2282911
405.85,0.2276171
406.85,0.2269791
407.85,0.2263297
408.85,0.2257493
409.85,0.2251163
410.85,0.2244693
411.85,0.2238854
412.85,0.2233378
413.85,0.2227511
414.85,0.2221681
415.85,0.2216205
416.85,0.2210706
417.85,0.2204859
418.85,0.2200115
419.85,0.2194666
420.85,0.2189679
421.85,0.218432
422.85,0.2179317
423.85,0.2174401
424.85,0.2169432
425.85,0.216506
426.85,0.2160101
427.85,0.215579
428.85,0.2151427
429.85,0.2147077
430.85,0.2142255
431.85,0.2138329
432.85,0.2134506
433.85,0.2130615
434.85,0.2126078
435.85,0.2122371
436.85,0.2118042
437.85,0.2114909
438.85,0.2110803
439.85,0.2107564
440.85,0.2104495
441.85,0.2100883
442.85,0.2097077
443.85,0.2093533
444.85,0.2089781
445.85,0.2086384
446.85,0.2083191
447.85,0.2080368
448.85,0.2076779
449.85,0.2073957
450.85,0.2070231
451.85,0.2067675
452.85,0.2064365
453.85,0.2061282
454.85,0.2058234
455.85,0.2055614
456.85,0.2052856
457.85,0.2049815
458.85,0.2047373
459.85,0.2044357
460.85,0.2041874
461.85,0.2038767
462.85,0.203596
463.85,0.2033227
464.85,0.2030638
465.85,0.2027413
466.85,0.2024676
467.85,0.2022276
468.85,0.2019233
469.85,0.2016924
470.85,0.2014527
471.85,0.2012117
472.85,0.2009732
473.85,0.2006913
474.85,0.2004768
475.85,0.2002777
476.85,0.1999989
477.85,0.1997068
478.85,0.1994913
479.85,0.1991997
480.85,0.1989644
481.85,0.1988031
482.85,0.1985572
483.85,0.1983167
484.85,0.1980848
485.85,0.197858
486.85,0.1976957
487.85,0.1973986
488.85,0.1972103
489.85,0.196991
490.85,0.1967304
491.85,0.1965298
492.85,0.196328
493.85,0.1961342
494.85,0.1959296
495.85,0.1956772
496.85,0.1955226
497.85,0.1953706
498.85,0.1950986
499.85,0.1949317
500.85,0.1947002
501.85,0.194514
502.85,0.1943425
503.85,0.1941432
504.85,0.1939668
505.85,0.1937539
506.85,0.193526
507.85,0.1933357
508.85,0.193121
509.85,0.192871
510.85,0.1926846
511.85,0.1925378
512.85,0.1923936
513.85,0.1921903
514.85,0.1919689
515.85,0.1918166
516.85,0.1916208
517.85,0.1914293
518.85,0.1912728
519.85,0.1910853
520.85,0.1909389
521.85,0.1907844
522.85,0.1906025
523.85,0.1904268
524.85,0.1902401
525.85,0.1900167
526.85,0.1898014
527.85,0.189668
528.85,0.1894328
529.85,0.1893127
530.85,0.1891368
531.85,0.1889795
532.85,0.1888266
533.85,0.1886606
534.85,0.1884482
535.85,0.1882754
536.85,0.1880689
537.85,0.1879712
538.85,0.1877961
539.85,0.1876392
540.85,0.1875421
541.85,0.1874016
542.85,0.1872684
543.85,0.1870527
544.85,0.1869272
545.85,0.1867039
546.85,0.1865517
547.85,0.1864562
548.85,0.1862897
549.85,0.1861304
550.85,0.185989
551.85,0.1858701
552.85,0.185658
553.85,0.1855343
554.85,0.1853835
555.85,0.1852937
556.85,0.1851176
557.85,0.1849797
558.85,0.1848388
559.85,0.1846734
560.85,0.1845404
561.85,0.1844667
562.85,0.1843485
563.85,0.1842261
564.85,0.1840514
565.85,0.183919
566.85,0.1837874
567.85,0.1837388
568.85,0.1835636
569.85,0.1833728
570.85,0.1833232
571.85,0.1831649
572.85,0.1829832
573.85,0.182892
574.85,0.1828096
575.85,0.1826606
576.85,0.1825196
577.85,0.1824119
578.85,0.1823042
579.85,0.1822129
580.85,0.1820314
581.85,0.181882
582.85,0.1817827
583.85,0.1817244
584.85,0.1816172
585.85,0.1814925
586.85,0.1813523
587.85,0.1812528
588.85,0.181135
589.85,0.1810375
590.85,0.1809698
591.85,0.1808968
592.85,0.1807791
593.85,0.1806714
594.85,0.1805885
595.85,0.1805089
596.85,0.1803403
597.85,0.1802672
598.85,0.1801919
599.85,0.1800672
600.85,0.1799108
601.85,0.1798175
602.85,0.1798017
603.85,0.1797692
604.85,0.1796286
605.85,0.1795613
606.85,0.1794482
607.85,0.1793472
608.85,0.1792545
609.85,0.1791714
610.85,0.1791131
611.85,0.1790052
612.85,0.1789805
613.85,0.1788974
614.85,0.1787977
615.85,0.1786817
616.85,0.1786817
617.85,0.1786157
618.85,0.1785411
619.85,0.1784916
620.85,0.1783753
621.85,0.1782589
622.85,0.1781687
623.85,0.1781602
624.85,0.1780937
625.85,0.1780279
626.85,0.1779257
627.85,0.1778945
628.85,0.1778192
629.85,0.177761
630.85,0.1776945
631.85,0.1776283
632.85,0.1775631
633.85,0.1775374
634.85,0.177433
635.85,0.1773969
636.85,0.1773519
637.85,0.1772917
638.85,0.1772059
639.85,0.1771682
640.85,0.1770673
641.85,0.1770766
642.85,0.1770045
643.85,0.17697
644.85,0.1769197
645.85,0.1768543
646.85,0.1767681
647.85,0.1767381
648.85,0.1767283
649.85,0.1766957
650.85,0.1765843
651.85,0.1765669
652.85,0.1764949
653.85,0.1764214
654.85,0.1763781
655.85,0.1763303
656.85,0.1762394
657.85,0.1762202
658.85,0.1761241
659.85,0.1761524
660.85,0.1760439
661.85,0.1760132
662.85,0.1759573
663.85,0.1759218
664.85,0.1759221
665.85,0.1758504
666.85,0.1757448
667.85,0.1756613
668.85,0.1755968
669.85,0.175547
670.85,0.1754662
671.85,0.1753675
672.85,0.1753761
673.85,0.1753082
674.85,0.1752701
675.85,0.175189
676.85,0.1752019
677.85,0.1751285
678.85,0.1750872
679.85,0.1750548
680.85,0.1749852
681.85,0.1749289
682.85,0.1748707
683.85,0.1747964
684.85,0.1747374
685.85,0.1747363
686.85,0.1746784
687.85,0.1746564
688.85,0.1745637
689.85,0.1745382
690.85,0.17448
691.85,0.174389
692.85,0.1743308
693.85,0.1743223
694.85,0.1742892
695.85,0.1742478
696.85,0.1741815
697.85,0.1741069
698.85,0.1740572
699.85,0.1740404
700.85,0.1739824
701.85,0.1739323
702.85,0.17385
703.85,0.1738093
704.85,0.1737997
705.85,0.1737564
706.85,0.1737077
707.85,0.1736312
708.85,0.1735873
709.85,0.1735426
710.85,0.1735085
711.85,0.1734846
712.85,0.1734342
713.85,0.1733684
714.85,0.1733094
715.85,0.1732986
716.85,0.1732373
717.85,0.1732268
718.85,0.1731119
719.85,0.1730619
720.85,0.1729856
721.85,0.1729532
722.85,0.1728954
723.85,0.1728436
724.85,0.1727852
725.85,0.1727545
726.85,0.1727196
727.85,0.1726668
728.85,0.1726398
729.85,0.1725627
730.85,0.1725112
731.85,0.172454
732.85,0.1723624
733.85,0.1723705
734.85,0.1722761
735.85,0.1722093
736.85,0.1721381
737.85,0.1721157
738.85,0.172071
739.85,0.1720448
740.85,0.1720078
741.85,0.1719974
742.85,0.1719252
743.85,0.1718468
744.85,0.1717822
745.85,0.1717524
746.85,0.1716833
747.85,0.1717094
748.85,0.1716115
749.85,0.171587
750.85,0.1715242
751.85,0.1715146
752.85,0.1714456
753.85,0.1714072
754.85,0.1713634
755.85,0.1713111
756.85,0.1712342
757.85,0.171199
758.85,0.171158
759.85,0.1711152
760.85,0.1710498
761.85,0.1710536
762.85,0.1709866
763.85,0.1709837
764.85,0.1709445
765.85,0.1708585
766.85,0.1708251
767.85,0.1707719
768.85,0.1707202
769.85,0.1706797
770.85,0.1706137
771.85,0.1706294
772.85,0.1705885
773.85,0.1705466
774.85,0.1704647
775.85,0.1704644
776.85,0.1704354
777.85,0.1703899
778.85,0.170368
779.85,0.1703038
780.85,0.1702357
781.85,0.1701948
782.85,0.1701573
783.85,0.1701289
784.85,0.1701029
785.85,0.1700761
786.85,0.1700219
787.85,0.169942
788.85,0.1699598
789.85,0.1699189
790.85,0.1698785
791.85,0.1698251
792.85,0.169798
793.85,0.1697565
794.85,0.1697315
795.85,0.1696596
796.85,0.1696548
797.85,0.1696244